,trial_number,set_size,match,correct,response,response_time,probe_letter,session,session_file
0,1.0,6.0,1.0,1.0,51.0,7.40475,X,1,Data_Subject_08_Session_01.h5_seeg_raw.csv
1,2.0,6.0,2.0,1.0,52.0,2.32525,X,1,Data_Subject_08_Session_01.h5_seeg_raw.csv
2,3.0,6.0,1.0,1.0,51.0,1.418,X,1,Data_Subject_08_Session_01.h5_seeg_raw.csv
3,4.0,8.0,2.0,1.0,52.0,1.32925,X,1,Data_Subject_08_Session_01.h5_seeg_raw.csv
4,5.0,4.0,1.0,1.0,51.0,0.998,X,1,Data_Subject_08_Session_01.h5_seeg_raw.csv
5,6.0,8.0,2.0,1.0,52.0,1.0235,X,1,Data_Subject_08_Session_01.h5_seeg_raw.csv
6,7.0,8.0,2.0,1.0,52.0,1.2105,X,1,Data_Subject_08_Session_01.h5_seeg_raw.csv
7,8.0,6.0,2.0,1.0,52.0,1.31575,X,1,Data_Subject_08_Session_01.h5_seeg_raw.csv
8,9.0,8.0,2.0,1.0,52.0,1.7785,X,1,Data_Subject_08_Session_01.h5_seeg_raw.csv
9,10.0,4.0,2.0,1.0,52.0,2.0485,X,1,Data_Subject_08_Session_01.h5_seeg_raw.csv
10,11.0,4.0,1.0,1.0,51.0,1.76625,X,1,Data_Subject_08_Session_01.h5_seeg_raw.csv
11,12.0,6.0,2.0,1.0,52.0,1.118,X,1,Data_Subject_08_Session_01.h5_seeg_raw.csv
12,13.0,8.0,2.0,1.0,52.0,2.268,X,1,Data_Subject_08_Session_01.h5_seeg_raw.csv
13,14.0,8.0,1.0,0.0,2.0,1.2065,X,1,Data_Subject_08_Session_01.h5_seeg_raw.csv
14,15.0,4.0,2.0,1.0,52.0,1.27825,X,1,Data_Subject_08_Session_01.h5_seeg_raw.csv
15,16.0,4.0,1.0,1.0,51.0,1.08925,X,1,Data_Subject_08_Session_01.h5_seeg_raw.csv
16,17.0,8.0,2.0,1.0,52.0,1.31275,X,1,Data_Subject_08_Session_01.h5_seeg_raw.csv
17,18.0,6.0,2.0,1.0,52.0,1.1865,X,1,Data_Subject_08_Session_01.h5_seeg_raw.csv
18,19.0,8.0,2.0,1.0,52.0,1.675,X,1,Data_Subject_08_Session_01.h5_seeg_raw.csv
19,20.0,4.0,1.0,1.0,51.0,1.7655,X,1,Data_Subject_08_Session_01.h5_seeg_raw.csv
20,21.0,6.0,1.0,1.0,51.0,2.497,X,1,Data_Subject_08_Session_01.h5_seeg_raw.csv
21,22.0,4.0,2.0,1.0,52.0,1.2975,X,1,Data_Subject_08_Session_01.h5_seeg_raw.csv
22,23.0,6.0,1.0,1.0,51.0,2.77625,X,1,Data_Subject_08_Session_01.h5_seeg_raw.csv
23,24.0,8.0,2.0,0.0,1.0,2.20775,X,1,Data_Subject_08_Session_01.h5_seeg_raw.csv
24,25.0,4.0,1.0,1.0,51.0,1.69425,X,1,Data_Subject_08_Session_01.h5_seeg_raw.csv
25,26.0,4.0,1.0,1.0,51.0,1.81075,X,1,Data_Subject_08_Session_01.h5_seeg_raw.csv
26,27.0,4.0,2.0,1.0,52.0,2.82975,X,1,Data_Subject_08_Session_01.h5_seeg_raw.csv
27,28.0,8.0,1.0,1.0,51.0,1.894,X,1,Data_Subject_08_Session_01.h5_seeg_raw.csv
28,29.0,6.0,1.0,1.0,51.0,1.8315,X,1,Data_Subject_08_Session_01.h5_seeg_raw.csv
29,30.0,6.0,1.0,1.0,51.0,2.48725,X,1,Data_Subject_08_Session_01.h5_seeg_raw.csv
30,31.0,4.0,1.0,1.0,51.0,1.25075,X,1,Data_Subject_08_Session_01.h5_seeg_raw.csv
31,32.0,6.0,2.0,1.0,52.0,2.43575,X,1,Data_Subject_08_Session_01.h5_seeg_raw.csv
32,33.0,4.0,1.0,1.0,51.0,1.671,X,1,Data_Subject_08_Session_01.h5_seeg_raw.csv
33,34.0,4.0,1.0,1.0,51.0,1.412,X,1,Data_Subject_08_Session_01.h5_seeg_raw.csv
34,35.0,6.0,2.0,1.0,52.0,1.9085,X,1,Data_Subject_08_Session_01.h5_seeg_raw.csv
35,36.0,4.0,1.0,1.0,51.0,1.49025,X,1,Data_Subject_08_Session_01.h5_seeg_raw.csv
36,37.0,8.0,2.0,0.0,1.0,1.8085,X,1,Data_Subject_08_Session_01.h5_seeg_raw.csv
37,38.0,4.0,1.0,1.0,51.0,2.2975,X,1,Data_Subject_08_Session_01.h5_seeg_raw.csv
38,39.0,4.0,1.0,1.0,51.0,1.34025,X,1,Data_Subject_08_Session_01.h5_seeg_raw.csv
39,40.0,8.0,2.0,0.0,1.0,1.42825,X,1,Data_Subject_08_Session_01.h5_seeg_raw.csv
40,41.0,4.0,1.0,1.0,51.0,1.6015,X,1,Data_Subject_08_Session_01.h5_seeg_raw.csv
41,42.0,8.0,1.0,0.0,2.0,3.745,X,1,Data_Subject_08_Session_01.h5_seeg_raw.csv
42,43.0,4.0,2.0,1.0,52.0,1.5315,X,1,Data_Subject_08_Session_01.h5_seeg_raw.csv
43,44.0,4.0,2.0,1.0,52.0,1.1325,X,1,Data_Subject_08_Session_01.h5_seeg_raw.csv
44,45.0,6.0,2.0,1.0,52.0,2.08225,X,1,Data_Subject_08_Session_01.h5_seeg_raw.csv
45,46.0,8.0,2.0,1.0,52.0,4.99125,X,1,Data_Subject_08_Session_01.h5_seeg_raw.csv
46,47.0,8.0,1.0,1.0,51.0,2.0855,X,1,Data_Subject_08_Session_01.h5_seeg_raw.csv
47,48.0,8.0,2.0,1.0,52.0,1.56525,X,1,Data_Subject_08_Session_01.h5_seeg_raw.csv
48,49.0,4.0,1.0,0.0,2.0,1.95825,X,1,Data_Subject_08_Session_01.h5_seeg_raw.csv
49,50.0,4.0,1.0,1.0,51.0,1.33775,X,1,Data_Subject_08_Session_01.h5_seeg_raw.csv
50,1.0,8.0,1.0,1.0,51.0,1.37125,X,2,Data_Subject_08_Session_02.h5_seeg_raw.csv
51,2.0,4.0,1.0,1.0,51.0,1.25,X,2,Data_Subject_08_Session_02.h5_seeg_raw.csv
52,3.0,8.0,1.0,1.0,51.0,0.973,X,2,Data_Subject_08_Session_02.h5_seeg_raw.csv
53,4.0,4.0,2.0,1.0,52.0,1.27775,X,2,Data_Subject_08_Session_02.h5_seeg_raw.csv
54,5.0,6.0,2.0,1.0,52.0,2.60175,X,2,Data_Subject_08_Session_02.h5_seeg_raw.csv
55,6.0,8.0,1.0,1.0,51.0,1.585,X,2,Data_Subject_08_Session_02.h5_seeg_raw.csv
56,7.0,8.0,1.0,0.0,2.0,3.72575,X,2,Data_Subject_08_Session_02.h5_seeg_raw.csv
57,8.0,4.0,1.0,1.0,51.0,1.24325,X,2,Data_Subject_08_Session_02.h5_seeg_raw.csv
58,9.0,6.0,1.0,1.0,51.0,1.8465,X,2,Data_Subject_08_Session_02.h5_seeg_raw.csv
59,10.0,4.0,2.0,1.0,52.0,1.0905,X,2,Data_Subject_08_Session_02.h5_seeg_raw.csv
60,11.0,4.0,1.0,1.0,51.0,1.29425,X,2,Data_Subject_08_Session_02.h5_seeg_raw.csv
61,12.0,6.0,2.0,1.0,52.0,2.366,X,2,Data_Subject_08_Session_02.h5_seeg_raw.csv
62,13.0,6.0,2.0,1.0,52.0,2.10925,X,2,Data_Subject_08_Session_02.h5_seeg_raw.csv
63,14.0,6.0,2.0,1.0,52.0,3.81575,X,2,Data_Subject_08_Session_02.h5_seeg_raw.csv
64,15.0,4.0,1.0,1.0,51.0,1.2765,X,2,Data_Subject_08_Session_02.h5_seeg_raw.csv
65,16.0,6.0,2.0,1.0,52.0,1.8805,X,2,Data_Subject_08_Session_02.h5_seeg_raw.csv
66,17.0,4.0,2.0,1.0,52.0,1.01725,X,2,Data_Subject_08_Session_02.h5_seeg_raw.csv
67,18.0,4.0,2.0,1.0,52.0,1.9495,X,2,Data_Subject_08_Session_02.h5_seeg_raw.csv
68,19.0,4.0,1.0,1.0,51.0,1.791,X,2,Data_Subject_08_Session_02.h5_seeg_raw.csv
69,20.0,6.0,1.0,1.0,51.0,2.15875,X,2,Data_Subject_08_Session_02.h5_seeg_raw.csv
70,21.0,4.0,2.0,1.0,52.0,2.10425,X,2,Data_Subject_08_Session_02.h5_seeg_raw.csv
71,22.0,4.0,2.0,1.0,52.0,2.70875,X,2,Data_Subject_08_Session_02.h5_seeg_raw.csv
72,23.0,4.0,2.0,1.0,52.0,1.2505,X,2,Data_Subject_08_Session_02.h5_seeg_raw.csv
73,24.0,8.0,1.0,1.0,51.0,1.693,X,2,Data_Subject_08_Session_02.h5_seeg_raw.csv
74,25.0,8.0,1.0,1.0,51.0,1.092,X,2,Data_Subject_08_Session_02.h5_seeg_raw.csv
75,26.0,8.0,2.0,1.0,52.0,1.66975,X,2,Data_Subject_08_Session_02.h5_seeg_raw.csv
76,27.0,6.0,1.0,1.0,51.0,0.749,X,2,Data_Subject_08_Session_02.h5_seeg_raw.csv
77,28.0,6.0,2.0,1.0,52.0,1.7025,X,2,Data_Subject_08_Session_02.h5_seeg_raw.csv
78,29.0,6.0,1.0,1.0,51.0,0.983,X,2,Data_Subject_08_Session_02.h5_seeg_raw.csv
79,30.0,8.0,2.0,0.0,1.0,1.4685,X,2,Data_Subject_08_Session_02.h5_seeg_raw.csv
80,31.0,4.0,1.0,1.0,51.0,1.5635,X,2,Data_Subject_08_Session_02.h5_seeg_raw.csv
81,32.0,8.0,1.0,1.0,51.0,2.75875,X,2,Data_Subject_08_Session_02.h5_seeg_raw.csv
82,33.0,8.0,1.0,1.0,51.0,1.5425,X,2,Data_Subject_08_Session_02.h5_seeg_raw.csv
83,34.0,8.0,2.0,1.0,52.0,1.476,X,2,Data_Subject_08_Session_02.h5_seeg_raw.csv
84,35.0,4.0,1.0,1.0,51.0,0.63625,X,2,Data_Subject_08_Session_02.h5_seeg_raw.csv
85,36.0,8.0,1.0,1.0,51.0,1.6525,X,2,Data_Subject_08_Session_02.h5_seeg_raw.csv
86,37.0,8.0,1.0,1.0,51.0,1.268,X,2,Data_Subject_08_Session_02.h5_seeg_raw.csv
87,38.0,4.0,1.0,1.0,51.0,0.96075,X,2,Data_Subject_08_Session_02.h5_seeg_raw.csv
88,39.0,4.0,1.0,1.0,51.0,0.8915,X,2,Data_Subject_08_Session_02.h5_seeg_raw.csv
89,40.0,6.0,1.0,1.0,51.0,1.50325,X,2,Data_Subject_08_Session_02.h5_seeg_raw.csv
90,41.0,4.0,1.0,1.0,51.0,1.084,X,2,Data_Subject_08_Session_02.h5_seeg_raw.csv
91,42.0,6.0,1.0,1.0,51.0,1.2265,X,2,Data_Subject_08_Session_02.h5_seeg_raw.csv
92,43.0,4.0,2.0,1.0,52.0,1.247,X,2,Data_Subject_08_Session_02.h5_seeg_raw.csv
93,44.0,8.0,1.0,1.0,51.0,1.2165,X,2,Data_Subject_08_Session_02.h5_seeg_raw.csv
94,45.0,8.0,1.0,0.0,2.0,4.81975,X,2,Data_Subject_08_Session_02.h5_seeg_raw.csv
95,46.0,4.0,2.0,1.0,52.0,1.582,X,2,Data_Subject_08_Session_02.h5_seeg_raw.csv
96,47.0,6.0,1.0,1.0,51.0,1.07075,X,2,Data_Subject_08_Session_02.h5_seeg_raw.csv
97,48.0,6.0,1.0,1.0,51.0,1.47125,X,2,Data_Subject_08_Session_02.h5_seeg_raw.csv
98,49.0,4.0,2.0,1.0,52.0,1.20575,X,2,Data_Subject_08_Session_02.h5_seeg_raw.csv
99,50.0,4.0,2.0,1.0,52.0,1.56675,X,2,Data_Subject_08_Session_02.h5_seeg_raw.csv
100,1.0,8.0,1.0,0.0,2.0,2.65925,X,3,Data_Subject_08_Session_03.h5_seeg_raw.csv
101,2.0,4.0,2.0,1.0,52.0,1.381,X,3,Data_Subject_08_Session_03.h5_seeg_raw.csv
102,3.0,4.0,1.0,0.0,2.0,1.03825,X,3,Data_Subject_08_Session_03.h5_seeg_raw.csv
103,4.0,4.0,2.0,1.0,52.0,1.73675,X,3,Data_Subject_08_Session_03.h5_seeg_raw.csv
104,5.0,6.0,2.0,1.0,52.0,1.2815,X,3,Data_Subject_08_Session_03.h5_seeg_raw.csv
105,6.0,4.0,1.0,1.0,51.0,1.02025,X,3,Data_Subject_08_Session_03.h5_seeg_raw.csv
106,7.0,8.0,2.0,1.0,52.0,2.24275,X,3,Data_Subject_08_Session_03.h5_seeg_raw.csv
107,8.0,6.0,2.0,1.0,52.0,1.83475,X,3,Data_Subject_08_Session_03.h5_seeg_raw.csv
108,9.0,4.0,1.0,1.0,51.0,1.388,X,3,Data_Subject_08_Session_03.h5_seeg_raw.csv
109,10.0,4.0,2.0,1.0,52.0,1.5325,X,3,Data_Subject_08_Session_03.h5_seeg_raw.csv
110,11.0,8.0,1.0,0.0,2.0,1.1145,X,3,Data_Subject_08_Session_03.h5_seeg_raw.csv
111,12.0,4.0,1.0,1.0,51.0,1.53875,X,3,Data_Subject_08_Session_03.h5_seeg_raw.csv
112,13.0,4.0,1.0,1.0,51.0,2.17375,X,3,Data_Subject_08_Session_03.h5_seeg_raw.csv
113,14.0,6.0,2.0,1.0,52.0,1.05875,X,3,Data_Subject_08_Session_03.h5_seeg_raw.csv
114,15.0,8.0,2.0,1.0,52.0,1.26675,X,3,Data_Subject_08_Session_03.h5_seeg_raw.csv
115,16.0,8.0,1.0,1.0,51.0,1.268,X,3,Data_Subject_08_Session_03.h5_seeg_raw.csv
116,17.0,8.0,2.0,1.0,52.0,1.0725,X,3,Data_Subject_08_Session_03.h5_seeg_raw.csv
117,18.0,6.0,1.0,1.0,51.0,1.4945,X,3,Data_Subject_08_Session_03.h5_seeg_raw.csv
118,19.0,6.0,1.0,1.0,51.0,1.139,X,3,Data_Subject_08_Session_03.h5_seeg_raw.csv
119,20.0,8.0,1.0,1.0,51.0,0.895,X,3,Data_Subject_08_Session_03.h5_seeg_raw.csv
120,21.0,4.0,2.0,1.0,52.0,0.86125,X,3,Data_Subject_08_Session_03.h5_seeg_raw.csv
121,22.0,6.0,2.0,1.0,52.0,0.99475,X,3,Data_Subject_08_Session_03.h5_seeg_raw.csv
122,23.0,6.0,2.0,1.0,52.0,0.79125,X,3,Data_Subject_08_Session_03.h5_seeg_raw.csv
123,24.0,4.0,2.0,1.0,52.0,1.2885,X,3,Data_Subject_08_Session_03.h5_seeg_raw.csv
124,25.0,4.0,1.0,1.0,51.0,0.95,X,3,Data_Subject_08_Session_03.h5_seeg_raw.csv
125,26.0,8.0,2.0,1.0,52.0,1.2075,X,3,Data_Subject_08_Session_03.h5_seeg_raw.csv
126,27.0,8.0,2.0,1.0,52.0,0.749,X,3,Data_Subject_08_Session_03.h5_seeg_raw.csv
127,28.0,4.0,2.0,1.0,52.0,0.8355,X,3,Data_Subject_08_Session_03.h5_seeg_raw.csv
128,29.0,4.0,1.0,1.0,51.0,0.50825,X,3,Data_Subject_08_Session_03.h5_seeg_raw.csv
129,30.0,8.0,1.0,1.0,51.0,1.26425,X,3,Data_Subject_08_Session_03.h5_seeg_raw.csv
130,31.0,6.0,2.0,1.0,52.0,0.728,X,3,Data_Subject_08_Session_03.h5_seeg_raw.csv
131,32.0,8.0,2.0,0.0,1.0,1.141,X,3,Data_Subject_08_Session_03.h5_seeg_raw.csv
132,33.0,4.0,1.0,1.0,51.0,1.293,X,3,Data_Subject_08_Session_03.h5_seeg_raw.csv
133,34.0,8.0,1.0,1.0,51.0,1.509,X,3,Data_Subject_08_Session_03.h5_seeg_raw.csv
134,35.0,8.0,2.0,1.0,52.0,1.40275,X,3,Data_Subject_08_Session_03.h5_seeg_raw.csv
135,36.0,8.0,1.0,0.0,2.0,2.254,X,3,Data_Subject_08_Session_03.h5_seeg_raw.csv
136,37.0,4.0,1.0,1.0,51.0,1.42025,X,3,Data_Subject_08_Session_03.h5_seeg_raw.csv
137,38.0,4.0,2.0,1.0,52.0,1.02725,X,3,Data_Subject_08_Session_03.h5_seeg_raw.csv
138,39.0,4.0,2.0,1.0,52.0,1.29175,X,3,Data_Subject_08_Session_03.h5_seeg_raw.csv
139,40.0,4.0,2.0,1.0,52.0,0.996,X,3,Data_Subject_08_Session_03.h5_seeg_raw.csv
140,41.0,4.0,1.0,1.0,51.0,0.90575,X,3,Data_Subject_08_Session_03.h5_seeg_raw.csv
141,42.0,6.0,1.0,0.0,2.0,1.46675,X,3,Data_Subject_08_Session_03.h5_seeg_raw.csv
142,43.0,4.0,1.0,1.0,51.0,1.18375,X,3,Data_Subject_08_Session_03.h5_seeg_raw.csv
143,44.0,4.0,2.0,1.0,52.0,1.0015,X,3,Data_Subject_08_Session_03.h5_seeg_raw.csv
144,45.0,6.0,1.0,1.0,51.0,1.04675,X,3,Data_Subject_08_Session_03.h5_seeg_raw.csv
145,46.0,8.0,1.0,0.0,2.0,1.00225,X,3,Data_Subject_08_Session_03.h5_seeg_raw.csv
146,47.0,4.0,2.0,1.0,52.0,1.1255,X,3,Data_Subject_08_Session_03.h5_seeg_raw.csv
147,48.0,6.0,1.0,1.0,51.0,1.352,X,3,Data_Subject_08_Session_03.h5_seeg_raw.csv
148,49.0,8.0,1.0,1.0,51.0,1.8495,X,3,Data_Subject_08_Session_03.h5_seeg_raw.csv
149,50.0,4.0,1.0,1.0,51.0,1.00025,X,3,Data_Subject_08_Session_03.h5_seeg_raw.csv
150,1.0,8.0,1.0,1.0,51.0,1.08825,X,4,Data_Subject_08_Session_04.h5_seeg_raw.csv
151,2.0,4.0,1.0,1.0,51.0,1.0245,X,4,Data_Subject_08_Session_04.h5_seeg_raw.csv
152,3.0,4.0,1.0,1.0,51.0,0.6775,X,4,Data_Subject_08_Session_04.h5_seeg_raw.csv
153,4.0,8.0,1.0,0.0,2.0,1.5915,X,4,Data_Subject_08_Session_04.h5_seeg_raw.csv
154,5.0,4.0,1.0,1.0,51.0,0.84375,X,4,Data_Subject_08_Session_04.h5_seeg_raw.csv
155,6.0,4.0,1.0,1.0,51.0,1.67175,X,4,Data_Subject_08_Session_04.h5_seeg_raw.csv
156,7.0,4.0,2.0,1.0,52.0,1.115,X,4,Data_Subject_08_Session_04.h5_seeg_raw.csv
157,8.0,8.0,2.0,1.0,52.0,0.936,X,4,Data_Subject_08_Session_04.h5_seeg_raw.csv
158,9.0,8.0,1.0,1.0,51.0,1.024,X,4,Data_Subject_08_Session_04.h5_seeg_raw.csv
159,10.0,4.0,1.0,1.0,51.0,1.0155,X,4,Data_Subject_08_Session_04.h5_seeg_raw.csv
160,11.0,8.0,1.0,1.0,51.0,0.71275,X,4,Data_Subject_08_Session_04.h5_seeg_raw.csv
161,12.0,8.0,1.0,1.0,51.0,1.6915,X,4,Data_Subject_08_Session_04.h5_seeg_raw.csv
162,13.0,6.0,2.0,1.0,52.0,0.8895,X,4,Data_Subject_08_Session_04.h5_seeg_raw.csv
163,14.0,8.0,1.0,0.0,2.0,1.25525,X,4,Data_Subject_08_Session_04.h5_seeg_raw.csv
164,15.0,4.0,1.0,1.0,51.0,1.4275,X,4,Data_Subject_08_Session_04.h5_seeg_raw.csv
165,16.0,8.0,1.0,1.0,51.0,1.04925,X,4,Data_Subject_08_Session_04.h5_seeg_raw.csv
166,17.0,8.0,2.0,1.0,52.0,2.0625,X,4,Data_Subject_08_Session_04.h5_seeg_raw.csv
167,18.0,8.0,2.0,0.0,1.0,2.34675,X,4,Data_Subject_08_Session_04.h5_seeg_raw.csv
168,19.0,4.0,1.0,1.0,51.0,1.7225,X,4,Data_Subject_08_Session_04.h5_seeg_raw.csv
169,20.0,8.0,1.0,1.0,51.0,1.9685,X,4,Data_Subject_08_Session_04.h5_seeg_raw.csv
170,21.0,6.0,2.0,1.0,52.0,0.9695,X,4,Data_Subject_08_Session_04.h5_seeg_raw.csv
171,22.0,8.0,1.0,1.0,51.0,0.93,X,4,Data_Subject_08_Session_04.h5_seeg_raw.csv
172,23.0,4.0,1.0,1.0,51.0,1.067,X,4,Data_Subject_08_Session_04.h5_seeg_raw.csv
173,24.0,6.0,1.0,1.0,51.0,1.046,X,4,Data_Subject_08_Session_04.h5_seeg_raw.csv
174,25.0,8.0,1.0,0.0,2.0,1.08325,X,4,Data_Subject_08_Session_04.h5_seeg_raw.csv
175,26.0,4.0,2.0,1.0,52.0,1.00575,X,4,Data_Subject_08_Session_04.h5_seeg_raw.csv
176,27.0,6.0,1.0,1.0,51.0,0.89075,X,4,Data_Subject_08_Session_04.h5_seeg_raw.csv
177,28.0,6.0,2.0,1.0,52.0,1.04575,X,4,Data_Subject_08_Session_04.h5_seeg_raw.csv
178,29.0,6.0,1.0,1.0,51.0,0.9545,X,4,Data_Subject_08_Session_04.h5_seeg_raw.csv
179,30.0,4.0,2.0,1.0,52.0,1.6585,X,4,Data_Subject_08_Session_04.h5_seeg_raw.csv
180,31.0,8.0,2.0,1.0,52.0,1.041,X,4,Data_Subject_08_Session_04.h5_seeg_raw.csv
181,32.0,6.0,2.0,1.0,52.0,1.44725,X,4,Data_Subject_08_Session_04.h5_seeg_raw.csv
182,33.0,6.0,2.0,1.0,52.0,1.51975,X,4,Data_Subject_08_Session_04.h5_seeg_raw.csv
183,34.0,8.0,1.0,0.0,2.0,1.064,X,4,Data_Subject_08_Session_04.h5_seeg_raw.csv
184,35.0,4.0,2.0,1.0,52.0,1.45175,X,4,Data_Subject_08_Session_04.h5_seeg_raw.csv
185,36.0,8.0,2.0,1.0,52.0,1.1265,X,4,Data_Subject_08_Session_04.h5_seeg_raw.csv
186,37.0,4.0,2.0,1.0,52.0,1.266,X,4,Data_Subject_08_Session_04.h5_seeg_raw.csv
187,38.0,8.0,1.0,1.0,51.0,1.41375,X,4,Data_Subject_08_Session_04.h5_seeg_raw.csv
188,39.0,8.0,2.0,0.0,1.0,1.4315,X,4,Data_Subject_08_Session_04.h5_seeg_raw.csv
189,40.0,4.0,2.0,1.0,52.0,1.5015,X,4,Data_Subject_08_Session_04.h5_seeg_raw.csv
190,41.0,6.0,1.0,1.0,51.0,1.58375,X,4,Data_Subject_08_Session_04.h5_seeg_raw.csv
191,42.0,6.0,2.0,1.0,52.0,1.00525,X,4,Data_Subject_08_Session_04.h5_seeg_raw.csv
192,43.0,8.0,1.0,1.0,51.0,1.045,X,4,Data_Subject_08_Session_04.h5_seeg_raw.csv
193,44.0,6.0,2.0,1.0,52.0,0.77525,X,4,Data_Subject_08_Session_04.h5_seeg_raw.csv
194,45.0,4.0,2.0,1.0,52.0,1.27125,X,4,Data_Subject_08_Session_04.h5_seeg_raw.csv
195,46.0,4.0,2.0,1.0,52.0,1.3465,X,4,Data_Subject_08_Session_04.h5_seeg_raw.csv
196,47.0,4.0,2.0,1.0,52.0,1.1745,X,4,Data_Subject_08_Session_04.h5_seeg_raw.csv
197,48.0,6.0,1.0,1.0,51.0,1.42725,X,4,Data_Subject_08_Session_04.h5_seeg_raw.csv
198,49.0,8.0,2.0,1.0,52.0,2.043,X,4,Data_Subject_08_Session_04.h5_seeg_raw.csv
199,50.0,4.0,1.0,1.0,51.0,1.571,X,4,Data_Subject_08_Session_04.h5_seeg_raw.csv
200,1.0,8.0,2.0,1.0,52.0,0.870375,K,5,Data_Subject_08_Session_05.h5_seeg_raw.csv
201,2.0,4.0,2.0,1.0,52.0,0.933125,L,5,Data_Subject_08_Session_05.h5_seeg_raw.csv
202,3.0,8.0,1.0,1.0,51.0,1.467125,H,5,Data_Subject_08_Session_05.h5_seeg_raw.csv
203,4.0,4.0,1.0,1.0,51.0,1.423625,R,5,Data_Subject_08_Session_05.h5_seeg_raw.csv
204,5.0,6.0,1.0,1.0,51.0,1.924625,H,5,Data_Subject_08_Session_05.h5_seeg_raw.csv
205,6.0,6.0,1.0,1.0,51.0,1.173375,T,5,Data_Subject_08_Session_05.h5_seeg_raw.csv
206,7.0,4.0,2.0,1.0,52.0,0.8745,B,5,Data_Subject_08_Session_05.h5_seeg_raw.csv
207,8.0,4.0,2.0,1.0,52.0,1.25025,L,5,Data_Subject_08_Session_05.h5_seeg_raw.csv
208,9.0,8.0,2.0,1.0,52.0,1.832125,V,5,Data_Subject_08_Session_05.h5_seeg_raw.csv
209,10.0,6.0,1.0,1.0,51.0,1.458875,K,5,Data_Subject_08_Session_05.h5_seeg_raw.csv
210,11.0,4.0,1.0,1.0,51.0,1.284625,H,5,Data_Subject_08_Session_05.h5_seeg_raw.csv
211,12.0,4.0,1.0,0.0,2.0,1.29475,W,5,Data_Subject_08_Session_05.h5_seeg_raw.csv
212,13.0,4.0,1.0,1.0,51.0,2.284125,C,5,Data_Subject_08_Session_05.h5_seeg_raw.csv
213,14.0,4.0,1.0,1.0,51.0,1.61575,L,5,Data_Subject_08_Session_05.h5_seeg_raw.csv
214,15.0,4.0,2.0,1.0,52.0,1.925875,W,5,Data_Subject_08_Session_05.h5_seeg_raw.csv
215,16.0,6.0,2.0,1.0,52.0,1.50525,Q,5,Data_Subject_08_Session_05.h5_seeg_raw.csv
216,17.0,6.0,1.0,0.0,2.0,4.308125,B,5,Data_Subject_08_Session_05.h5_seeg_raw.csv
217,18.0,6.0,1.0,1.0,51.0,2.16725,R,5,Data_Subject_08_Session_05.h5_seeg_raw.csv
218,19.0,6.0,1.0,1.0,51.0,1.08725,P,5,Data_Subject_08_Session_05.h5_seeg_raw.csv
219,20.0,6.0,2.0,1.0,52.0,1.78125,H,5,Data_Subject_08_Session_05.h5_seeg_raw.csv
220,21.0,4.0,2.0,1.0,52.0,1.516,T,5,Data_Subject_08_Session_05.h5_seeg_raw.csv
221,22.0,6.0,2.0,0.0,1.0,3.887375,K,5,Data_Subject_08_Session_05.h5_seeg_raw.csv
222,23.0,4.0,1.0,1.0,51.0,1.898,Q,5,Data_Subject_08_Session_05.h5_seeg_raw.csv
223,24.0,4.0,2.0,1.0,52.0,1.371375,R,5,Data_Subject_08_Session_05.h5_seeg_raw.csv
224,25.0,6.0,1.0,1.0,51.0,1.8135,P,5,Data_Subject_08_Session_05.h5_seeg_raw.csv
225,26.0,4.0,2.0,1.0,52.0,1.290625,B,5,Data_Subject_08_Session_05.h5_seeg_raw.csv
226,27.0,6.0,2.0,1.0,52.0,1.281875,W,5,Data_Subject_08_Session_05.h5_seeg_raw.csv
227,28.0,6.0,1.0,1.0,51.0,1.447125,H,5,Data_Subject_08_Session_05.h5_seeg_raw.csv
228,29.0,4.0,1.0,1.0,51.0,1.422375,W,5,Data_Subject_08_Session_05.h5_seeg_raw.csv
229,30.0,4.0,2.0,1.0,52.0,1.163375,L,5,Data_Subject_08_Session_05.h5_seeg_raw.csv
230,31.0,8.0,2.0,1.0,52.0,2.88675,H,5,Data_Subject_08_Session_05.h5_seeg_raw.csv
231,32.0,4.0,2.0,1.0,52.0,2.167875,H,5,Data_Subject_08_Session_05.h5_seeg_raw.csv
232,33.0,6.0,1.0,1.0,51.0,1.318625,T,5,Data_Subject_08_Session_05.h5_seeg_raw.csv
233,34.0,4.0,2.0,1.0,52.0,2.31425,T,5,Data_Subject_08_Session_05.h5_seeg_raw.csv
234,35.0,4.0,1.0,1.0,51.0,1.57575,T,5,Data_Subject_08_Session_05.h5_seeg_raw.csv
235,36.0,8.0,1.0,1.0,51.0,1.20525,B,5,Data_Subject_08_Session_05.h5_seeg_raw.csv
236,37.0,8.0,2.0,1.0,52.0,0.995875,Q,5,Data_Subject_08_Session_05.h5_seeg_raw.csv
237,38.0,8.0,1.0,1.0,51.0,1.042375,H,5,Data_Subject_08_Session_05.h5_seeg_raw.csv
238,39.0,6.0,1.0,1.0,51.0,1.20125,G,5,Data_Subject_08_Session_05.h5_seeg_raw.csv
239,40.0,6.0,1.0,1.0,51.0,1.362,D,5,Data_Subject_08_Session_05.h5_seeg_raw.csv
240,41.0,4.0,1.0,1.0,51.0,0.97,N,5,Data_Subject_08_Session_05.h5_seeg_raw.csv
241,42.0,6.0,1.0,1.0,51.0,1.094125,W,5,Data_Subject_08_Session_05.h5_seeg_raw.csv
242,43.0,6.0,1.0,1.0,51.0,1.3115,L,5,Data_Subject_08_Session_05.h5_seeg_raw.csv
243,44.0,4.0,1.0,1.0,51.0,0.886875,C,5,Data_Subject_08_Session_05.h5_seeg_raw.csv
244,45.0,4.0,1.0,1.0,51.0,1.143625,T,5,Data_Subject_08_Session_05.h5_seeg_raw.csv
245,46.0,8.0,2.0,1.0,52.0,1.739125,W,5,Data_Subject_08_Session_05.h5_seeg_raw.csv
246,47.0,6.0,2.0,1.0,52.0,1.163125,K,5,Data_Subject_08_Session_05.h5_seeg_raw.csv
247,48.0,6.0,2.0,1.0,52.0,2.377875,W,5,Data_Subject_08_Session_05.h5_seeg_raw.csv
248,49.0,4.0,2.0,1.0,52.0,0.9795,B,5,Data_Subject_08_Session_05.h5_seeg_raw.csv
